# Lines beginning with `#' are comments and are ignored.
# Blank lines are significant: do not add or remove!
# _database_code_amcsd 0009325
#
# sg, abc, angles.
227a	35.136299 35.136299 35.136299    90 90 90
# ctl, extra.
0.25 0.75 0.875	0.5 1.0
# limits.
--

# rad/asf, n, limits, comb.
# rads: (1.6 1) -> (1.088 1.26).
Zr6_O20	16	--	--
# zooms.
1.6:0-0
# comb, bound.
#0@c1	0	0	0.14784
#1@e1	0.30624	0	0.25

# 2theta, fwhm, hkl, mult, val.
25.59	0.2	0 1 2	6	61.91
35.17	0.2	1 0 4	6	96.62
37.80	0.2	1 1 0	6	44.59
43.38	0.2	1 1 3	12	99.82
46.21	0.2	2 0 2	6	1.46
52.58	0.2	0 2 4	6	50.05
57.54	0.2	1 1 6	12	100.00
59.78	0.2	2 1 1	12	2.60
61.17	0.2	1 2 2	12	3.30
61.35	0.2	0 1 8	6	7.58
66.56	0.2	2 1 4	12	39.66
68.25	0.2	3 0 0	6	61.31
70.46	0.2	1 2 5	12	1.31
74.36	0.2	2 0 8	6	1.52
76.94	0.2	1 0 10	6	17.73
77.30	0.2	1 1 9	12	9.57
80.75	0.2	2 2 0	6	2.29
84.41	0.2	2 2 3	12	1.91
86.41	0.2	3 1 2	12	1.40
86.57	0.2	1 2 8	12	3.00
89.07	0.2	0 2 10	6	8.37

#spectrum
3	0.0107
3.01999998	0.0098
3.03999996	0.0107
3.05999994	0.0097
3.07999992	0.0098
3.0999999	0.0107
3.11999989	0.0108
3.1400001	0.0098
3.16000009	0.0097
3.18000007	0.0098
3.20000005	0.0098
3.22000003	0.0107
3.24000001	0.0107
3.25999999	0.0107
3.27999997	0.0097
3.29999995	0.0108
3.31999993	0.0107
3.33999991	0.0098
3.3599999	0.0107
3.38000011	0.0098
3.4000001	0.0107
3.42000008	0.0108
3.44000006	0.0107
3.46000004	0.0097
3.48000002	0.0107
3.5	0.0097
3.51999998	0.0098
3.53999996	0.0098
3.55999994	0.0107
3.57999992	0.0098
3.5999999	0.0107
3.61999989	0.0107
3.6400001	0.0098
3.66000009	0.0098
3.68000007	0.0107
3.70000005	0.0107
3.72000003	0.0107
3.74000001	0.0097
3.75999999	0.0098
3.77999997	0.0098
3.79999995	0.0098
3.81999993	0.0098
3.83999991	0.0097
3.8599999	0.0107
3.88000011	0.0097
3.9000001	0.0097
3.92000008	0.0097
3.94000006	0.0107
3.96000004	0.0097
3.98000002	0.0098
4	0.0097
4.01999998	0.0098
4.03999996	0.0108
4.05999994	0.0108
4.07999992	0.0108
4.0999999	0.0107
4.11999989	0.0107
4.13999987	0.0098
4.15999985	0.0097
4.17999983	0.0098
4.19999981	280.2002
4.21999979	365.3838
4.23999977	496.0967
4.26000023	733.1514
4.28000021	1500.9443
4.30000019	5257.5469
4.32000017	18155.334
4.34000015	39769.9062
4.36000013	47618.0889
4.38000011	30032.0507
4.4000001	10979.2802
4.42000008	2934.3037
4.44000006	1030.8477
4.46000004	607.2647
4.48000002	431.1856
4.5	323.8193
4.51999998	0.0098
4.53999996	0.0108
4.55999994	0.0098
4.57999992	0.0098
4.5999999	0.0098
4.61999989	0.0098
4.63999987	0.0098
4.65999985	0.0107
4.67999983	0.0097
4.69999981	0.0097
4.71999979	0.0108
4.73999977	0.0098
4.76000023	0.0098
4.78000021	0.0098
4.80000019	0.0107
4.82000017	0.0107
4.84000015	0.0098
4.86000013	0.0108
4.88000011	0.0097
4.9000001	0.0097
4.92000008	0.0108
4.94000006	0.0098
4.96000004	0.0108
4.98000002	0.0108
5	0.0107
5.01999998	0.0098
5.03999996	0.0098
5.05999994	0.0097
5.07999992	0.0108
5.0999999	0.0107
5.11999989	0.0108
5.13999987	0.0098
5.15999985	0.0108
5.17999983	0.0098
5.19999981	0.0098
5.21999979	0.0098
5.23999977	0.0108
5.26000023	0.0098
5.28000021	0.0098
5.30000019	0.0097
5.32000017	0.0098
5.34000015	0.0107
5.36000013	0.0107
5.38000011	0.0098
5.4000001	0.0098
5.42000008	0.0098
5.44000006	0.0098
5.46000004	0.0097
5.48000002	0.0107
5.5	0.0098
5.51999998	0.0108
5.53999996	0.0107
5.55999994	0.0097
5.57999992	0.0108
5.5999999	0.0098
5.61999989	0.0097
5.63999987	0.0107
5.65999985	0.0098
5.67999983	0.0098
5.69999981	0.0098
5.71999979	0.0107
5.73999977	0.0097
5.76000023	0.0097
5.78000021	0.0098
5.80000019	0.0098
5.82000017	0.0098
5.84000015	0.0098
5.86000013	0.0098
5.88000011	0.0108
5.9000001	0.0098
5.92000008	0.0108
5.94000006	0.0107
5.96000004	0.0108
5.98000002	0.0097
6	0.0098
6.01999998	0.0097
6.03999996	0.0098
6.05999994	0.0098
6.07999992	0.0098
6.0999999	0.0098
6.11999989	0.0098
6.13999987	0.0108
6.15999985	0.0098
6.17999983	0.0108
6.19999981	0.0097
6.21999979	0.0097
6.23999977	0.0098
6.26000023	0.0107
6.28000021	0.0108
6.30000019	0.0098
6.32000017	0.0097
6.34000015	0.0107
6.36000013	0.0098
6.38000011	0.0098
6.4000001	0.0097
6.42000008	0.0098
6.44000006	0.0108
6.46000004	0.0098
6.48000002	0.0097
6.5	0.0097
6.51999998	0.0098
6.53999996	0.0098
6.55999994	0.0097
6.57999992	0.0097
6.5999999	0.0098
6.61999989	0.0098
6.63999987	0.0098
6.65999985	0.0108
6.67999983	0.0097
6.69999981	0.0097
6.71999979	0.0098
6.73999977	0.0097
6.76000023	0.0098
6.78000021	0.0108
6.80000019	0.0098
6.82000017	0.0108
6.84000015	0.0107
6.86000013	0.0108
6.88000011	0.0107
6.9000001	0.0098
6.92000008	0.0097
6.94000006	1.1387
6.96000004	2.0273
6.98000002	2.6435
7	3.5957
7.01999998	5.374
7.03999996	11.4267
7.05999994	40.1211
7.07999992	131.8925
7.0999999	274.9258
7.11999989	320.583
7.13999987	208.2148
7.15999985	81.1845
7.17999983	23.0225
7.19999981	7.8457
7.21999979	4.4287
7.23999977	3.1191
7.26000023	2.3399
7.28000021	0.0098
7.30000019	0.0098
7.32000017	0.0098
7.34000015	0.0107
7.36000013	0.0098
7.38000011	0.0098
7.4000001	0.0097
7.42000008	0.0098
7.44000006	0.0108
7.46000004	0.0107
7.48000002	0.0108
7.5	0.0107
7.51999998	0.0097
7.53999996	0.0098
7.55999994	0.0098
7.57999992	0.0098
7.5999999	0.0098
7.61999989	0.0097
7.63999987	0.0097
7.65999985	0.0098
7.67999983	0.0098
7.69999981	0.0097
7.71999979	0.0107
7.73999977	0.0098
7.76000023	0.0098
7.78000021	0.0107
7.80000019	0.0098
7.82000017	0.0097
7.84000015	0.0097
7.86000013	0.0098
7.88000011	0.0098
7.9000001	0.0097
7.92000008	0.0097
7.94000006	0.0098
7.96000004	0.0098
7.98000002	0.0097
8	0.0097
8.02000046	0.0098
8.03999996	0.0098
8.06000042	0.0098
8.07999992	0.0097
8.10000038	0.0098
8.11999989	0.0098
8.14000034	0.0098
8.15999985	0.0098
8.18000031	25.877
8.19999981	46.3116
8.22000027	61.6553
8.23999977	86.9434
8.26000023	149.1201
8.27999973	427.8515
8.30000019	1550.6455
8.31999969	4060.0664
8.34000015	6270.8555
8.35999966	5450.1807
8.38000011	2802.4727
8.39999962	937.5
8.42000008	271.8135
8.43999958	116.249
8.46000004	74.6142
8.47999954	54.3613
8.5	16.3135
8.52000046	0.0098
8.53999996	28.2295
8.56000042	35.9512
8.57999992	64.8135
8.60000038	87.9482
8.61999989	130.4619
8.64000034	270.3955
8.65999985	927.9248
8.68000031	3053.6396
8.69999981	6469.5732
8.72000027	7822.7032
8.73999977	5473.7901
8.76000023	2347.3057
8.77999973	709.8388
8.80000019	227.4306
8.81999969	118.2461
8.84000015	81.3975
8.85999966	60.5957
8.88000011	18.4209
8.89999962	0.0098
8.92000008	0.0088
8.93999958	0.0098
8.96000004	0.0098
8.97999954	0.0107
9	0.0097
9.02000046	0.0098
9.03999996	0.0098
9.06000042	0.0097
9.07999992	0.0107
9.10000038	0.0098
9.11999989	0.0097
9.14000034	0.0098
9.15999985	0.0098
9.18000031	0.0097
9.19999981	0.0097
9.22000027	0.0098
9.23999977	0.0098
9.26000023	0.0097
9.27999973	0.0107
9.30000019	0.0098
9.31999969	0.0098
9.34000015	0.0097
9.35999966	0.0097
9.38000011	0.0098
9.39999962	0.0098
9.42000008	0.0107
9.43999958	0.0097
9.46000004	0.0098
9.47999954	0.0098
9.5	0.0097
9.52000046	0.0097
9.53999996	0.0098
9.56000042	0.0098
9.57999992	0.0098
9.60000038	0.0098
9.61999989	0.0097
9.64000034	0.0097
9.65999985	0.0088
9.68000031	0.0098
9.69999981	0.0098
9.72000027	0.0098
9.73999977	0.0097
9.76000023	0.0098
9.77999973	0.0098
9.80000019	0.0098
9.81999969	0.0098
9.84000015	0.0098
9.85999966	0.0097
9.88000011	0.0098
9.89999962	9.6709
9.92000008	17.0234
9.93999958	22.5303
9.96000004	31.4219
9.97999954	51.7002
10	138.1397
10.0200005	498.5976
10.04	1360.2217
10.0600004	2236.6318
10.0799999	2124.7198
10.1000004	1248.8642
10.1199999	477.2998
10.1400003	142.0049
10.1599998	52.6758
10.1800003	31.0713
10.1999998	22.1884
10.2200003	6.8613
10.2399998	0.0098
10.2600002	0.0097
10.2799997	0.0098
10.3000002	0.0097
10.3199997	0.0098
10.3400002	0.0098
10.3599997	0.0098
10.3800001	0.0098
10.3999996	0.0098
10.4200001	0.0098
10.4399996	0.0098
10.46	0.0088
10.4799995	0.0107
10.5	0.0097
10.5200005	0.0108
10.54	0.0088
10.5600004	0.0088
10.5799999	0.0098
10.6000004	0.0098
10.6199999	0.0097
10.6400003	0.0108
10.6599998	0.0098
10.6800003	0.0097
10.6999998	0.0097
10.7200003	0.0098
10.7399998	0.0108
10.7600002	0.0107
10.7799997	0.0088
10.8000002	2.8106
10.8199997	3.5976
10.8400002	6.3897
10.8599997	8.7451
10.8800001	13.4003
10.8999996	30.6181
10.9200001	108.2197
10.9399996	327.9257
10.96	621.2959
10.9799995	682.4072
11	469.9864
11.0200005	210.4453
11.04	67.4385
11.0600004	21.8174
11.0799999	11.0811
11.1000004	7.5859
11.1199999	2.378
11.1400003	1.7959
11.1599998	0.0098
11.1800003	0.0098
11.1999998	0.0088
11.2200003	0.0088
11.2399998	0.0098
11.2600002	0.0097
11.2799997	0.0107
11.3000002	0.0088
11.3199997	0.0098
11.3400002	0.0098
11.3599997	0.0098
11.3800001	0.0088
11.3999996	0.0097
11.4200001	0.0098
11.4399996	0.0098
11.46	0.0097
11.4799995	0.0098
11.5	0.0098
11.5200005	0.0098
11.54	0.0098
11.5600004	0.0098
11.5799999	0.0097
11.6000004	0.0098
11.6199999	0.0097
11.6400003	0.0097
11.6599998	0.0097
11.6800003	0.0097
11.6999998	0.0098
11.7200003	0.0097
11.7399998	0.0098
11.7600002	0.0087
11.7799997	0.0098
11.8000002	0.0097
11.8199997	0.0097
11.8400002	0.0098
11.8599997	0.0098
11.8800001	0.0098
11.8999996	0.0088
11.9200001	0.0087
11.9399996	0.0098
11.96	0.0088
11.9799995	0.0098
12	0.0097
12.0200005	0.0097
12.04	0.0098
12.0600004	0.0098
12.0799999	0.0097
12.1000004	0.0097
12.1199999	0.0098
12.1400003	0.0097
12.1599998	0.1904
12.1800003	0.2392
12.1999998	0.4131
12.2200003	0.5547
12.2399998	0.8164
12.2600002	1.6699
12.2799997	5.6055
12.3000002	17.9775
12.3199997	37.2031
12.3400002	45.0078
12.3599997	34.8018
12.3800001	18.2256
12.3999996	6.6104
12.4200001	2.0468
12.4399996	0.8828
12.46	0.5684
12.4799995	0.419
12.5	0.1416
12.5200005	0.0097
12.54	0.0098
12.5600004	0.0098
12.5799999	0.0098
12.6000004	0.0098
12.6199999	0.0098
12.6400003	0.0098
12.6599998	0.0098
12.6800003	0.0098
12.6999998	0.0088
12.7200003	0.0098
12.7399998	0.0098
12.7600002	0.0097
12.7799997	0.0088
12.8000002	0.0098
12.8199997	0.0088
12.8400002	0.0098
12.8599997	0.0098
12.8800001	0.0097
12.8999996	0.0088
12.9200001	1.7851
12.9399996	2.3008
12.96	4.0459
12.9799995	5.6201
13	9.1631
13.0200005	24.0332
13.04	85.4649
13.0600004	230.0029
13.0799999	374.2911
13.1000004	364.1816
13.1199999	244.8643
13.1400003	113.1074
13.1599998	37.6982
13.1800003	12.4297
13.1999998	6.3379
13.2200003	4.3555
13.2399998	1.4238
13.2600002	1.0772
13.2799997	0.0088
13.3000002	0.0088
13.3199997	0.0087
13.3400002	0.0088
13.3599997	0.0088
13.3800001	0.0098
13.3999996	0.0088
13.4200001	0.0098
13.4399996	0.0087
13.46	0.0098
13.4799995	0.0097
13.5	0.0097
13.5200005	0.0098
13.54	0.0098
13.5600004	0.0097
13.5799999	0.0097
13.6000004	0.0098
13.6199999	0.0088
13.6400003	0.0088
13.6599998	0.0088
13.6800003	0.0088
13.6999998	0.0088
13.7200003	0.0097
13.7399998	0.0088
13.7600002	0.0098
13.7799997	0.0088
13.8000002	0.0098
13.8199997	0.0097
13.8400002	0.0098
13.8599997	0.0098
13.8800001	0.0098
13.8999996	0.0097
13.9200001	0.0097
13.9399996	0.0098
13.96	0.0088
13.9799995	0.0088
14	0.0088
14.0200005	0.0088
14.04	0.0098
14.0600004	0.0098
14.0799999	0.0244
14.1000004	0.0283
14.1199999	0.042
14.1400003	0.0528
14.1599998	0.0771
14.1800003	0.1611
14.1999998	0.5362
14.2200003	1.5908
14.2399998	2.9726
14.2600002	3.2686
14.2799997	2.4882
14.3000002	1.3789
14.3199997	0.5362
14.3400002	0.1748
14.3599997	0.0781
14.3800001	0.0527
14.3999996	0.0234
14.4200001	0.0206
14.4399996	0.0088
14.46	0.0098
14.4799995	0.0097
14.5	0.0088
14.5200005	0.0088
14.54	0.0098
14.5600004	0.0088
14.5799999	0.0088
14.6000004	0.0098
14.6199999	0.0098
14.6400003	0.0097
14.6599998	0.0097
14.6800003	0.0098
14.6999998	0.0098
14.7200003	0.0097
14.7399998	0.041
14.7600002	0.0498
14.7799997	0.0801
14.8000002	0.1074
14.8199997	0.164
14.8400002	0.3896
14.8599997	1.3594
14.8800001	3.7715
14.8999996	6.3867
14.9200001	6.4463
14.9399996	4.7471
14.96	3.5957
14.9799995	2.3105
15	2.6465
15.0200005	3.457
15.04	6.0156
15.0600004	17.7549
15.0799999	60.7295
15.1000004	142.6718
15.1199999	197.2715
15.1400003	172.9483
15.1599998	116.3134
15.1800003	55.7675
15.1999998	19.1152
15.2200003	6.3867
15.2399998	3.2822
15.2600002	2.2676
15.2799997	0.7735
15.3000002	0.5849
15.3199997	0.0098
15.3400002	0.0087
15.3599997	0.0088
15.3800001	0.0098
15.3999996	0.0088
15.4200001	0.0088
15.4399996	0.0098
15.46	0.0097
15.4799995	0.0088
15.5	0.0088
15.5200005	0.0088
15.54	0.0088
15.5600004	0.0098
15.5799999	0.0088
15.6000004	0.0088
15.6199999	0.0088
15.6400003	0.0087
15.6599998	0.0088
15.6800003	0.0097
15.6999998	0.0088
15.7200003	0.0088
15.7399998	0.0088
15.7600002	0.0088
15.7799997	0.5439
15.8000002	0.7021
15.8199997	1.208
15.8400002	1.6914
15.8599997	2.8535
15.8800001	7.9297
15.8999996	27.6875
15.9200001	69.3565
15.9399996	102.835
15.96	94.1142
15.9799995	67.6601
16	36.1797
16.0200005	13.4668
16.0400009	4.3203
16.0599995	1.9776
16.0799999	1.3115
16.1000004	0.455
16.1200008	0.3428
16.1399994	0.0088
16.1599998	0.0088
16.1800003	0.0088
16.2000008	0.0088
16.2199993	0.0088
16.2399998	0.0098
16.2600002	0.0088
16.2800007	0.0088
16.2999992	0.0088
16.3199997	0.0088
16.3400002	0.0088
16.3600006	0.4736
16.3799992	0.6015
16.3999996	0.7881
16.4200001	1.3711
16.4400005	2.0225
16.4599991	4.1582
16.4799995	13.9092
16.5	43.6064
16.5200005	86.6982
16.5400009	99.9746
16.5599995	80.6758
16.5799999	53.5312
16.6000004	25.2998
16.6200008	8.7021
16.6399994	3.3203
16.6599998	2.5429
16.6800003	4.416
16.7000008	9.2471
16.7199993	14.6162
16.7399998	13.8466
16.7600002	10.4756
16.7800007	6.2783
16.7999992	2.5996
16.8199997	0.8379
16.8400002	0.3408
16.8600006	0.2148
16.8799992	0.0791
16.8999996	0.0615
16.9200001	0.0088
16.9400005	0.0088
16.9599991	0.0088
16.9799995	0.0088
17	0.0088
17.0200005	0.0088
17.0400009	0.0087
17.0599995	0.0087
17.0799999	0.0088
17.1000004	0.0088
17.1200008	0.0088
17.1399994	0.0098
17.1599998	0.0088
17.1800003	0.0088
17.2000008	0.0088
17.2199993	0.0088
17.2399998	0.0088
17.2600002	0.0087
17.2800007	0.0088
17.2999992	0.0088
17.3199997	0.0235
17.3400002	0.0284
17.3600006	0.042
17.3799992	0.0576
17.3999996	0.1065
17.4200001	0.3252
17.4400005	1.0254
17.4599991	2.1123
17.4799995	2.5166
17.5	2.0586
17.5200005	1.4639
17.5400009	0.7647
17.5599995	0.2803
17.5799999	0.0996
17.6000004	0.0537
17.6200008	0.0391
17.6399994	0.0195
17.6599998	0.0166
17.6800003	0.0087
17.7000008	0.0087
17.7199993	0.0088
17.7399998	0.0087
17.7600002	0.0088
17.7800007	0.0087
17.7999992	0.0088
17.8199997	0.0088
17.8400002	0.0088
17.8600006	1.8985
17.8799992	2.4795
17.8999996	4.2598
17.9200001	6.1231
17.9400005	11.4619
17.9599991	35.8603
17.9799995	118.707
18	258.8076
18.0200005	324.5693
18.0400009	269.792
18.0599995	199.123
18.0799999	112.0586
18.1000004	42.7657
18.1200008	13.7686
18.1399994	6.29
18.1599998	4.1718
18.1800003	1.4834
18.2000008	1.1123
18.2199993	0.0088
18.2399998	0.0088
18.2600002	0.0088
18.2800007	0.0088
18.2999992	0.0088
18.3199997	0.0087
18.3400002	0.0088
18.3600006	0.0088
18.3799992	0.0088
18.3999996	0.0088
18.4200001	0.0088
18.4400005	0.0088
18.4599991	0.0088
18.4799995	0.0088
18.5	0.0087
18.5200005	0.0088
18.5400009	0.0088
18.5599995	0.0088
18.5799999	0.0088
18.6000004	0.0088
18.6200008	0.0088
18.6399994	0.0088
18.6599998	0.0078
18.6800003	0.0088
18.7000008	0.0088
18.7199993	0.3311
18.7399998	0.4239
18.7600002	0.71
18.7800007	0.9717
18.7999992	1.5196
18.8199997	3.6738
18.8400002	12.8409
18.8600006	35.5557
18.8799992	58.918
18.8999996	56.8828
18.9200001	44.1748
18.9400005	31.1279
18.9599991	15.291
18.9799995	5.2275
19	1.8282
19.0200005	1.001
19.0400009	0.3574
19.0599995	0.2617
19.0799999	0.2012
19.1000004	0.0078
19.1200008	0.0088
19.1399994	0.0088
19.1599998	0.0088
19.1800003	0.0078
19.2000008	0.0087
19.2199993	1.8838
19.2399998	2.4063
19.2600002	3.1768
19.2800007	5.4678
19.2999992	8.2168
19.3199997	17.8135
19.3400002	60.7929
19.3600006	182.3857
19.3799992	336.9033
19.3999996	354.2344
19.4200001	277.4238
19.4400005	208.7676
19.4599991	115.502
19.4799995	42.7334
19.5	13.9776
19.5200005	6.7763
19.5400009	2.3466
19.5599995	1.6767
19.5799999	1.2617
19.6000004	0.0087
19.6200008	0.0078
19.6399994	0.0088
19.6599998	0.0078
19.6800003	0.0088
19.7000008	0.0088
19.7199993	0.0088
19.7399998	0.0087
19.7600002	0.0078
19.7800007	0.0088
19.7999992	0.0088
19.8199997	0.0088
19.8400002	0.0088
19.8600006	0.0088
19.8799992	0.0088
19.8999996	0.0088
19.9200001	0.0088
19.9400005	0.0088
19.9599991	0.0087
19.9799995	0.0088
20	0.0088
20.0200005	0.0088
20.0400009	0.7998
20.0599995	1.0303
20.0799999	1.3769
20.1000004	2.3926
20.1200008	3.9043
20.1399994	10.2315
20.1599998	35.7265
20.1800003	92.2822
20.2000008	139.1553
20.2199993	123.7236
20.2399998	95.999
20.2600002	70.9345
20.2800007	35.8906
20.2999992	12.3857
20.3199997	4.293
20.3400002	2.3291
20.3600006	0.8398
20.3799992	0.6113
20.3999996	0.4648
20.4200001	0.0078
20.4400005	0.0078
20.4599991	0.0078
20.4799995	0.0088
20.5	0.0078
20.5200005	0.2989
20.5400009	0.3868
20.5599995	0.6504
20.5799999	0.9297
20.6000004	1.7168
20.6200008	5.3037
20.6399994	17.5127
20.6599998	39.3858
20.6800003	48.3623
20.7000008	39.4561
20.7199993	33.3867
20.7399998	26.0283
20.7600002	20.8886
20.7800007	42.1914
20.7999992	122.001
20.8199997	232.6826
20.8400002	249.6885
20.8600006	192.4434
20.8799992	154.4502
20.8999996	98.5566
20.9200001	40.6308
20.9400005	13.0371
20.9599991	5.5449
20.9799995	3.5634
21	1.3223
21.0200005	0.9853
21.0400009	0.0088
21.0599995	0.0088
21.0799999	0.0088
21.1000004	0.0078
21.1200008	0.0088
21.1399994	0.0078
21.1599998	0.0088
21.1800003	0.0078
21.2000008	0.0078
21.2199993	0.0088
21.2399998	0.0078
21.2600002	0.0078
21.2800007	0.7715
21.2999992	0.9961
21.3199997	1.335
21.3400002	2.3037
21.3600006	3.7871
21.3799992	10.0488
21.3999996	34.9531
21.4200001	88.918
21.4400005	130.8545
21.4599991	112.5009
21.4799995	87.001
21.5	69.0898
21.5200005	37.7676
21.5400009	13.5927
21.5599995	4.541
21.5799999	2.3233
21.6000004	0.8447
21.6200008	0.6094
21.6399994	0.4629
21.6599998	0.0078
21.6800003	0.0078
21.7000008	0.0088
21.7199993	0.3174
21.7399998	0.4024
21.7600002	0.5283
21.7800007	0.8925
21.7999992	1.3359
21.8199997	2.8731
21.8400002	9.7393
21.8600006	29.1123
21.8799992	53.5596
21.8999996	54.5
21.9200001	41.3096
21.9400005	34.7978
21.9599991	24.3662
21.9799995	14.6562
22	19.8388
22.0200005	38.587
22.0400009	47.1113
22.0599995	36.8682
22.0799999	29.5166
22.1000004	22.708
22.1200008	11.4736
22.1399994	3.9228
22.1599998	1.3858
22.1800003	0.7705
22.2000008	0.2901
22.2199993	0.2128
22.2399998	0.1641
22.2600002	0.0079
22.2800007	0.0088
22.2999992	0.0078
22.3199997	0.0088
22.3400002	0.0078
22.3600006	0.0078
22.3799992	0.0078
22.3999996	0.0087
22.4200001	0.0087
22.4400005	0.0078
22.4599991	1.0322
22.4799995	1.3437
22.5	1.8213
22.5200005	3.1894
22.5400009	5.7813
22.5599995	17.459
22.5799999	58.2295
22.6000004	129.2597
22.6200008	160.3985
22.6399994	123.8252
22.6599998	99.3692
22.6800003	80.1269
22.7000008	42.0556
22.7199993	14.6446
22.7399998	5.04
22.7600002	2.7159
22.7800007	1.0137
22.7999992	0.7373
22.8199997	0.5606
22.8400002	0.0078
22.8600006	0.0078
22.8799992	0.2529
22.8999996	0.3232
22.9200001	0.4307
22.9400005	0.7334
22.9599991	1.1905
22.9799995	3.0996
23	10.7539
23.0200005	27.6006
23.0400009	40.8379
23.0599995	34.3857
23.0799999	25.9609
23.1000004	22.6738
23.1200008	14.3018
23.1399994	6.209
23.1599998	3.5068
23.1800003	3.3838
23.2000008	2.4658
23.2199993	1.8389
23.2399998	1.5898
23.2600002	0.915
23.2800007	0.3691
23.2999992	0.124
23.3199997	0.0595
23.3400002	0.0254
23.3600006	0.0214
23.3799992	0.0176
23.3999996	0.0078
23.4200001	0.0078
23.4400005	0.0078
23.4599991	0.0078
23.4799995	0.0078
23.5	0.0078
23.5200005	0.0078
23.5400009	0.0078
23.5599995	0.0078
23.5799999	0.2129
23.6000004	0.2754
23.6200008	0.3711
23.6399994	0.6425
23.6599998	1.1709
23.6800003	3.5567
23.7000008	11.7549
23.7199993	25.6768
23.7399998	31.0879
23.7600002	23.2236
23.7800007	18.666
23.7999992	16.1523
23.8199997	9.0879
23.8400002	3.29
23.8600006	1.1005
23.8799992	0.5654
23.8999996	0.2159
23.9200001	0.1582
23.9400005	0.1211
23.9599991	0.0087
23.9799995	0.831
24	1.0674
24.0200005	1.4267
24.0400009	2.4199
24.0599995	3.8975
24.0799999	9.9385
24.1000004	34.5156
24.1200008	90.1397
24.1399994	136.0957
24.1599998	114.3301
24.1800003	83.4981
24.2000008	76.6572
24.2199993	53.2636
24.2399998	22.6455
24.2600002	7.2715
24.2800007	3.0322
24.2999992	1.081
24.3199997	0.7539
24.3400002	0.5625
24.3600006	0.0079
24.3799992	0.0078
24.3999996	0.0078
24.4200001	0.0078
24.4400005	0.0078
24.4599991	0.0078
24.4799995	0.0069
24.5	0.0078
24.5200005	0.0079
24.5400009	0.0079
24.5599995	0.0078
24.5799999	0.0078
24.6000004	0.0078
24.6200008	0.0069
24.6399994	0.0078
24.6599998	0.0088
24.6800003	0.0088
24.7000008	0.0098
24.7199993	0.0098
24.7399998	0.0147
24.7600002	0.0303
24.7800007	0.0712
24.7999992	0.1172
24.8199997	0.1104
24.8400002	0.0791
24.8600006	0.0723
24.8799992	0.0605
24.8999996	0.0332
24.9200001	0.0166
24.9400005	0.0107
24.9599991	0.0088
24.9799995	0.0088
25	0.0088
25.0200005	0.0078
25.0400009	1.5801
25.0599995	2.0508
25.0799999	2.7666
25.1000004	4.7412
25.1200008	8.2178
25.1399994	23.5058
25.1599998	79.7627
25.1800003	186.5078
25.2000008	243.7158
25.2199993	183.2343
25.2399998	137.9316
25.2600002	132.9277
25.2800007	89.7519
25.2999992	36.8272
25.3199997	11.7988
25.3400002	5.1289
25.3600006	1.8818
25.3799992	1.3232
25.3999996	0.9883
25.4200001	0.0078
25.4400005	0.0078
25.4599991	0.0068
25.4799995	0.0078
25.5	0.0078
25.5200005	0.0078
25.5400009	0.0078
25.5599995	0.0078
25.5799999	0.0078
25.6000004	0.0079
25.6200008	0.0069
25.6399994	0.0069
25.6599998	0.0078
25.6800003	0.6807
25.7000008	0.8819
25.7199993	1.1914
25.7399998	2.039
25.7600002	3.585
25.7800007	10.4306
25.7999992	35.0947
25.8199997	80.291
25.8400002	101.9278
25.8600006	74.5498
25.8799992	55.9609
25.8999996	55.6163
25.9200001	38.71
25.9400005	16.1992
25.9599991	5.1924
25.9799995	2.211
26	0.8155
26.0200005	0.5733
26.0400009	0.4278
26.0599995	0.5849
26.0799999	0.7627
26.1000004	1.0401
26.1200008	1.8018
26.1399994	3.4092
26.1599998	10.6582
26.1800003	35.6484
26.2000008	73.3721
26.2199993	83.4951
26.2399998	59.7705
26.2600002	51.0869
26.2800007	62.876
26.2999992	91.0235
26.3199997	156.4844
26.3400002	192.8867
26.3600006	141.0098
26.3799992	101.96
26.3999996	103.456
26.4200001	76.917
26.4400005	33.7334
26.4599991	10.871
26.4799995	4.3799
26.5	1.583
26.5200005	1.0976
26.5400009	0.8135
26.5599995	0.0069
26.5799999	0.0069
26.6000004	0.0068
26.6200008	0.0069
26.6399994	0.0078
26.6599998	0.0069
26.6800003	0.0068
26.7000008	0.0078
26.7199993	0.0078
26.7399998	0.0078
26.7600002	0.0069
26.7800007	0.0068
26.7999992	0.0078
26.8199997	0.0068
26.8400002	0.0078
26.8600006	0.0068
26.8799992	0.0069
26.8999996	0.0068
26.9200001	0.0078
26.9400005	0.00781
26.9599991	0.00684
26.9799995	0.00683
27	0.00684
27.0200005	0.00781
27.0400009	1.66992
27.0599995	2.18261
27.0799999	2.9707
27.1000004	5.12988
27.1200008	9.61817
27.1399994	29.82034
27.1599998	98.05861
27.1800003	205.34276
27.2000008	234.89646
27.2199993	161.52733
27.2399998	129.08206
27.2600002	152.80367
27.2800007	171.87015
27.2999992	208.94239
27.3199997	208.29
27.3400002	137.86039
27.3600006	103.08003
27.3799992	109.11625
27.3999996	79.40035
27.4200001	33.63964
27.4400005	10.79199
27.4599991	4.47364
27.4799995	1.65722
27.5	1.15722
27.5200005	0.85937
27.5400009	0.00683
27.5599995	0.00684
27.5799999	0.00684
27.6000004	0.00782
27.6200008	0.00684
27.6399994	0.00684
27.6599998	0.00683
27.6800003	0.00781
27.7000008	0.00684
27.7199993	0.00879
27.7399998	0.01074
27.7600002	0.01758
27.7800007	0.02832
27.7999992	0.02832
27.8199997	0.02051
27.8400002	0.01758
27.8600006	0.01855
27.8799992	0.01465
27.8999996	0.00976
27.9200001	0.00781
27.9400005	0.00684
27.9599991	0.00781
27.9799995	1.31445
28	1.69433
28.0200005	2.26269
28.0400009	3.18848
28.0599995	6.01953
28.0799999	15.08496
28.1000004	51.9961
28.1200008	136.41504
28.1399994	206.39741
28.1599998	165.63669
28.1800003	105.30372
28.2000008	105.48731
28.2199993	102.57324
28.2399998	57.73242
28.2600002	20.60449
28.2800007	6.92481
28.2999992	2.23535
28.3199997	1.44336
28.3400002	1.04297
28.3600006	0.79004
28.3799992	0.00684
28.3999996	0.00782
28.4200001	0.00684
28.4400005	0.00781
28.4599991	0.00683
28.4799995	0.00684
28.5	0.00684
28.5200005	0.00781
28.5400009	0.00684
28.5599995	0.02539
28.5799999	0.03125
28.6000004	0.03808
28.6200008	0.05176
28.6399994	0.09082
28.6599998	0.22851
28.6800003	0.76563
28.7000008	1.91992
28.7199993	2.75
28.7399998	2.09766
28.7600002	1.33008
28.7800007	1.38379
28.7999992	1.35742
28.8199997	0.76464
28.8400002	0.27734
28.8600006	0.09766
28.8799992	0.03613
28.8999996	1.58789
28.9200001	2.03418
28.9400005	2.70703
28.9599991	3.79785
28.9799995	7.11621
29	17.67578
29.0200005	62.19434
29.0400009	162.14063
29.0599995	246.74023
29.0799999	199.86524
29.1000004	127.22461
29.1200008	141.04199
29.1399994	197.92481
29.1599998	238.28125
29.1800003	226.25977
29.2000008	142.87012
29.2199993	93.42676
29.2399998	104.69922
29.2600002	93.85742
29.2800007	48.0752
29.2999992	15.91602
29.3199997	5.67578
29.3400002	1.97266
29.3600006	1.31934
29.3799992	0.96484
29.3999996	0.00683
29.4200001	0.00684
29.4400005	0.00684
29.4599991	1.58203
29.4799995	2.03125
29.5	2.7002
29.5200005	3.77734
29.5400009	6.91016
29.5599995	16.29297
29.5799999	55.78808
29.6000004	153.23535
29.6200008	247.35938
29.6399994	208.50293
29.6599998	123.91894
29.6800003	115.86035
29.7000008	131.14746
29.7199993	88.15234
29.7399998	35.26855
29.7600002	11.3086
29.7800007	3.33691
29.7999992	2.33594
29.8199997	1.8584
29.8400002	1.66015
29.8600006	0.88281
29.8799992	1.78222
29.8999996	5.4336
29.9200001	17.48731
29.9400005	39.78027
29.9599991	50.54688
29.9799995	35.54395
30	24.86133
30.0200005	35.17383
30.0400009	55.02539
30.0599995	67.02247
30.0799999	53.56738
30.1000004	30.33692
30.1200008	24.86621
30.1399994	29.54199
30.1599998	22.27344
30.1800003	9.7832
30.2000008	3.08496
30.2199993	0.86328
30.2399998	0.4834
30.2600002	0.33887
30.2800007	0.25293
30.2999992	0.00683
30.3199997	0.00586
30.3400002	0.49121
30.3600006	0.63086
30.3799992	0.83789
30.3999996	1.17285
30.4200001	2.14747
30.4400005	5.12988
30.4599991	17.54786
30.4799995	47.52636
30.5	75.27149
30.5200005	61.9668
30.5400009	35.7373
30.5599995	33.37403
30.5799999	39.77441
30.6000004	28.2627
30.6200008	11.75
30.6399994	3.7627
30.6599998	1.4961
30.6800003	1.15234
30.7000008	1.13086
30.7199993	1.28125
30.7399998	1.67773
30.7600002	3.6084
30.7800007	12.04102
30.7999992	35.31348
30.8199997	62.95899
30.8400002	58.61133
30.8600006	33.95801
30.8799992	27.25879
30.8999996	34.22266
30.9200001	28.16894
30.9400005	13.10938
30.9599991	4.27832
30.9799995	1.15918
31	0.61524
31.0200005	0.42285
31.0400009	0.31348
31.0599995	0.00683
31.0799999	0.00586
31.1000004	0.00684
31.1200008	0.00585
31.1399994	0.00586
31.1599998	0.00684
31.1800003	0.00586
31.2000008	0.25489
31.2199993	0.32813
31.2399998	0.4375
31.2600002	0.61914
31.2800007	1.16797
31.2999992	3.01074
31.3199997	10.26953
31.3400002	25.98633
31.3600006	37.47168
31.3799992	28.10938
31.3999996	15.9043
31.4200001	16.10156
31.4400005	19.46386
31.4599991	13.60058
31.4799995	5.57813
31.5	1.78907
31.5200005	0.9209
31.5400009	0.82226
31.5599995	0.91015
31.5799999	1.16113
31.6000004	2.00684
31.6200008	5.71387
31.6399994	19.05859
31.6599998	43.71191
31.6800003	55.27051
31.7000008	37.11914
31.7199993	21.81054
31.7399998	24.92871
31.7600002	28.4834
31.7800007	18.12696
31.7999992	6.9668
31.8199997	2.25586
31.8400002	0.70801
31.8600006	0.43848
31.8799992	0.31347
31.8999996	0.23829
31.9200001	0.00586
31.9400005	0.00586
31.9599991	0.00586
31.9799995	0.00683
32	0.00586
32.0200005	0.00586
32.0400009	0.74902
32.0600014	0.97168
32.0800018	1.31055
32.0999985	1.88769
32.1199989	3.75195
32.1399994	10.55957
32.1599998	35.33399
32.1800003	82.06347
32.2000008	105.48633
32.2200012	71.42383
32.2400017	40.58691
32.2599983	45.4873
32.2799988	54.73144
32.2999992	36.91211
32.3199997	14.74511
32.3400002	4.73438
32.3600006	1.43945
32.3800011	0.86523
32.4000015	0.61328
32.4199982	0.46094
32.4399986	0.56933
32.4599991	0.73438
32.4799995	0.99024
32.5	1.37793
32.5200005	2.06934
32.5400009	4.83008
32.5600014	15.84668
32.5800018	46.93555
32.5999985	85.35058
32.6199989	80.95703
32.6399994	45.35254
32.6599998	32.44825
32.6800003	43.79492
32.7000008	43.12989
32.7200012	23.19726
32.7400017	8.05371
32.7599983	2.09863
32.7799988	0.97461
32.7999992	0.64258
32.8199997	0.46875
32.8400002	0.35742
32.8600006	0.11524
32.8800011	0.15039
32.9000015	0.20214
32.9199982	0.29199
32.9399986	0.59961
32.9599991	1.76953
32.9799995	5.76367
33	12.55469
33.0200005	14.85059
33.0400009	9.38672
33.0600014	5.36817
33.0800018	6.43457
33.0999985	7.81445
33.1199989	5.24121
33.1399994	2.08691
33.1599998	2.39258
33.1800003	2.44629
33.2000008	3.14843
33.2200012	4.45605
33.2400017	8.79004
33.2599983	24.76465
33.2799988	82.3584
33.2999992	188.91797
33.3199997	239.00879
33.3400002	158.51465
33.3600006	86.15332
33.3800011	96.32031
33.4000015	125.042
33.4199982	91.7754
33.4399986	38.97168
33.4599991	12.59765
33.4799995	3.91211
33.5	2.4668
33.5200005	1.74317
33.5400009	1.20703
33.5600014	0.04394
33.5800018	0.0166
33.5999985	0.0127
33.6199989	0.01172
33.6399994	0.00879
33.6599998	0.23535
33.6800003	0.30469
33.7000008	0.41211
33.7200012	0.59961
33.7400017	1.23242
33.7599983	3.64062
33.7799988	11.84863
33.7999992	25.79297
33.8199997	30.48438
33.8400002	19.12402
33.8600006	10.50098
33.8800011	12.46582
33.9000015	16.0918
33.9199982	11.54492
33.9399986	5.09667
33.9599991	1.90625
33.9799995	0.93945
34	0.92383
34.0200005	1.17481
34.0400009	2.98633
34.0600014	7.88379
34.0800018	22.80958
34.0999985	43.58692
34.1199989	45.21875
34.1399994	29.64648
34.1599998	31.93945
34.1800003	70.85059
34.2000008	117.17481
34.2200012	104.58594
34.2400017	54.76562
34.2599983	33.4043
34.2799988	44.5957
34.2999992	50.58593
34.3199997	31.08789
34.3400002	11.75977
34.3600006	3.01465
34.3800011	1.24121
34.4000015	0.7793
34.4199982	0.55957
34.4399986	0.68945
34.4599991	0.35351
34.4799995	0.47363
34.5	0.67578
34.5200005	1.30078
34.5400009	3.53418
34.5600014	11.84278
34.5800018	28.2627
34.5999985	37.74219
34.6199989	26.00977
34.6399994	13.15137
34.6599998	13.12597
34.6800003	18.97754
34.7000008	16.39258
34.7200012	8.7461
34.7400017	3.74023
34.7599983	2.23633
34.7799988	2.4746
34.7999992	3.47754
34.8199997	7.80957
34.8400002	24.99218
34.8600006	73.82715
34.8800011	134.22754
34.9000015	126.95411
34.9199982	68.42578
34.9399986	42.7207
34.9599991	60.458
34.9799995	72.57128
35	46.72754
35.0200005	18.07812
35.0400009	4.75
35.0600014	1.87598
35.0800018	1.15527
35.0999985	0.82324
35.1199989	0.61914
35.1399994	0.00488
35.1599998	0.00488
35.1800003	0.00586
35.2000008	0.00684
35.2200012	0.00684
35.2400017	0.00781
35.2599983	0.00781
35.2799988	0.00879
35.2999992	0.01367
35.3199997	0.03516
35.3400002	0.08789
35.3600006	0.14844
35.3800011	0.13476
35.4000015	0.07324
35.4199982	0.04785
35.4399986	0.06934
35.4599991	0.08203
35.4799995	0.05469
35.5	1.58789
35.5200005	2.06348
35.5400009	2.82031
35.5600014	4.21094
35.5800018	9.3584
35.5999985	29.27441
35.6199989	90.49805
35.6399994	178.77343
35.6599998	187.09863
35.6800003	106.7959
35.7000008	59.88379
35.7200012	81.68164
35.7400017	114.28613
35.7599983	87.43164
35.7799988	38.5166
35.7999992	14.16015
35.8199997	8.35156
35.8400002	8.01171
35.8600006	5.21973
35.8800011	2.45703
35.9000015	0.40722
35.9199982	0.16504
35.9399986	0.1045
35.9599991	1.68262
35.9799995	2.13476
36	2.78613
36.0200005	3.94433
36.0400009	6.61621
36.0600014	18.57617
36.0800018	62.68653
36.0999985	158.75195
36.1199989	230.40332
36.1399994	170.75879
36.1599998	82.22168
36.1800003	66.35743
36.2000008	104.68457
36.2200012	112.7246
36.2400017	65.17383
36.2599983	23.92968
36.2799988	7.00488
36.2999992	3.90821
36.3199997	3.77246
36.3400002	8.26758
36.3600006	21.97656
36.3800011	50.54786
36.4000015	71.87597
36.4199982	56.66699
36.4399986	44.79883
36.4599991	86.32422
36.4799995	169.54395
36.5	187.31152
36.5200005	109.80274
36.5400009	51.94238
36.5600014	55.13281
36.5800018	81.06445
36.5999985	69.57031
36.6199989	33.24511
36.6399994	11.11524
36.6599998	3.03711
36.6800003	1.59277
36.7000008	1.09571
36.7200012	0.8125
36.7400017	0.02051
36.7599983	0.02637
36.7799988	0.04102
36.7999992	0.10547
36.8199997	0.3418
36.8400002	0.87305
36.8600006	1.29785
36.8800011	0.98535
36.9000015	0.47266
36.9199982	0.34864
36.9399986	0.55762
36.9599991	0.65625
36.9799995	0.94824
37	0.8584
37.0200005	0.99219
37.0400009	1.39062
37.0600014	2.51367
37.0800018	7.7461
37.0999985	25.375
37.1199989	57.24023
37.1399994	71.10937
37.1599998	45.66699
37.1800003	21.35156
37.2000008	20.958
37.2200012	34.13183
37.2400017	34.66309
37.2599983	18.85742
37.2799988	6.65137
37.2999992	1.94531
37.3199997	1.08496
37.3400002	0.74219
37.3600006	0.48047
37.3800011	0.32227
37.4000015	0.01368
37.4199982	0.9414
37.4399986	1.19531
37.4599991	1.57129
37.4799995	2.15234
37.5	3.24805
37.5200005	7.2959
37.5400009	23.23633
37.5600014	70.27539
37.5800018	133.91602
37.5999985	134.01563
37.6199989	72.85254
37.6399994	36.53516
37.6599998	47.48535
37.6800003	72.91113
37.7000008	63.45703
37.7200012	30.70899
37.7400017	10.86426
37.7599983	4.1709
37.7799988	3.80176
37.7999992	7.65528
37.8199997	23.02051
37.8400002	55.01465
37.8600006	77.29395
37.8800011	55.37305
37.9000015	25.43457
37.9199982	19.17187
37.9399986	32.06836
37.9599991	39.10157
37.9799995	25.11817
38	9.71679
38.0200005	2.60156
38.0400009	1.04297
38.0600014	0.64453
38.0800018	0.45996
38.0999985	0.34668
38.1199989	0.00488
38.1399994	0.02734
38.1599998	0.03418
38.1800003	0.04297
38.2000008	0.05761
38.2200012	0.08594
38.2400017	0.20508
38.2599983	0.66504
38.2799988	1.87696
38.2999992	3.2168
38.3199997	2.84277
38.3400002	1.4248
38.3600006	0.76953
38.3800011	1.12597
38.4000015	1.6836
38.4199982	1.73828
38.4399986	1.10449
38.4599991	0.8291
38.4799995	1.02051
38.5	2.71386
38.5200005	7.31738
38.5400009	20.95117
38.5600014	41.47461
38.5800018	45.83691
38.5999985	33.38964
38.6199989	41.54003
38.6399994	88.13183
38.6599998	128.59375
38.6800003	99.21777
38.7000008	46.90234
38.7200012	28.62011
38.7400017	42.71484
38.7599983	55.45996
38.7799988	38.5918
38.7999992	15.86523
38.8199997	4.43653
38.8400002	1.59375
38.8600006	1.21387
38.8800011	1.01757
38.9000015	0.97558
38.9199982	0.70899
38.9399986	1.42383
38.9599991	4.71973
38.9799995	14.5752
39	29.02246
39.0200005	30.71192
39.0400009	17.26074
39.0600014	7.8125
39.0800018	8.77344
39.0999985	15.04199
39.1199989	16.6084
39.1399994	9.92871
39.1599998	4.80468
39.1800003	3.39942
39.2000008	5.44238
39.2200012	16.41895
39.2400017	51.04004
39.2599983	106.04981
39.2799988	119.01367
39.2999992	70.84082
39.3199997	34.50684
39.3400002	40.2666
39.3600006	67.65918
39.3800011	70.66992
39.4000015	40.49609
39.4199982	16.2041
39.4399986	8.54785
39.4599991	8.46972
39.4799995	6.09717
39.5	2.88526
39.5200005	1.14063
39.5400009	0.22022
39.5600014	0.1289
39.5800018	0.09229
39.5999985	0.06885
39.6199989	0.00439
39.6399994	0.00439
39.6599998	0.0044
39.6800003	0.00439
39.7000008	0.00488
39.7200012	0.00391
39.7400017	0.00489
39.7599983	0.0044
39.7799988	0.00439
39.7999992	1.49561
39.8199997	1.92139
39.8400002	2.55469
39.8600006	3.57227
39.8800011	5.73339
39.9000015	14.61768
39.9199982	48.56397
39.9399986	131.10303
39.9599991	210.24952
39.9799995	172.45214
40	81.88623
40.0200005	44.00244
40.0400009	67.6836
40.0600014	107.3667
40.0800018	94.57813
40.0999985	46.06299
40.1199989	14.17187
40.1399994	5.44727
40.1599998	3.4502
40.1800003	2.2124
40.2000008	1.36475
40.2200012	0.07226
40.2400017	0.75684
40.2599983	0.97363
40.2799988	1.31983
40.2999992	1.96387
40.3199997	3.97705
40.3400002	13.22119
40.3600006	40.31983
40.3800011	78.77393
40.4000015	81.49316
40.4199982	44.85791
40.4399986	19.35595
40.4599991	20.63721
40.4799995	39.083
40.5	45.38379
40.5200005	28.89892
40.5400009	13.33887
40.5600014	8.14795
40.5800018	14.71045
40.5999985	45.54052
40.6199989	124.0249
40.6399994	204.90137
40.6599998	173.7627
40.6800003	83.5332
40.7000008	40.39161
40.7200012	57.70459
40.7400017	99.03955
40.7599983	97.24756
40.7799988	51.29883
40.7999992	16.08398
40.8199997	4.92481
40.8400002	2.37646
40.8600006	1.5791
40.8800011	1.15039
40.9000015	1.01075
40.9199982	0.17676
40.9399986	0.23291
40.9599991	0.32275
40.9799995	0.50244
41	1.1499
41.0200005	3.96679
41.0400009	11.11084
41.0600014	18.89991
41.0800018	16.5625
41.0999985	8.10449
41.1199989	3.72364
41.1399994	4.98633
41.1599998	9.01269
41.1800003	9.51855
41.2000008	5.43213
41.2200012	1.98682
41.2400017	1.28173
41.2599983	2.05176
41.2799988	5.37402
41.2999992	11.62061
41.3199997	15.01368
41.3400002	12.20264
41.3600006	14.48291
41.3800011	29.08448
41.4000015	42.34668
41.4199982	34.23242
41.4399986	17.48535
41.4599991	9.21338
41.4799995	12.01563
41.5	18.70411
41.5200005	16.66846
41.5400009	8.21094
41.5600014	2.51025
41.5800018	1.07471
41.5999985	0.78759
41.6199989	0.79737
41.6399994	0.97705
41.6599998	1.52783
41.6800003	4.94726
41.7000008	15.32227
41.7200012	31.02881
41.7400017	33.65527
41.7599983	19.17285
41.7799988	7.85498
41.7999992	6.92237
41.8199997	13.458
41.8400002	18.28418
41.8600006	13.14502
41.8800011	5.7666
41.9000015	2.26806
41.9199982	2.66846
41.9399986	7.18359
41.9599991	16.93066
41.9799995	23.59571
42	17.08447
42.0200005	8.97461
42.0400009	8.61328
42.0600014	13.67676
42.0800018	16.59228
42.0999985	12.87695
42.1199989	6.49951
42.1399994	3.4795
42.1599998	3.79297
42.1800003	3.58642
42.2000008	1.97852
42.2200012	0.75147
42.2400017	0.23535
42.2599983	0.15966
42.2799988	0.1582
42.2999992	0.19483
42.3199997	0.34912
42.3400002	1.0542
42.3600006	3.14161
42.3800011	5.95166
42.4000015	5.94385
42.4199982	3.17725
42.4399986	1.29444
42.4599991	1.26074
42.4799995	3.31738
42.5	4.41846
42.5200005	3.82617
42.5400009	3.16162
42.5600014	6.44678
42.5800018	15.71143
42.5999985	44.74561
42.6199989	93.08935
42.6399994	111.91797
42.6599998	90.84961
42.6800003	118.23731
42.7000008	223.61231
42.7200012	284.18994
42.7400017	209.2622
42.7599983	107.29248
42.7799988	61.95166
42.7999992	83.98486
42.8199997	127.70801
42.8400002	110.30566
42.8600006	53.17334
42.8800011	16.68213
42.9000015	5.76416
42.9199982	3.56836
42.9399986	3.08349
42.9599991	3.48437
42.9799995	5.80127
43	19.7837
43.0200005	47.75439
43.0400009	65.71094
43.0600014	46.07324
43.0800018	19.59131
43.0999985	10.23975
43.1199989	17.40283
43.1399994	30.93506
43.1599998	31.55713
43.1800003	17.65284
43.2000008	6.87597
43.2200012	5.50098
43.2400017	13.98437
43.2599983	33.49365
43.2799988	48.02051
43.2999992	35.3413
43.3199997	15.27491
43.3400002	7.3545
43.3600006	11.36767
43.3800011	21.19677
43.4000015	23.15918
43.4199982	13.3545
43.4399986	4.4956
43.4599991	1.35108
43.4799995	0.60644
43.5	0.39258
43.5200005	0.50489
43.5400009	0.50098
43.5600014	0.38428
43.5800018	0.54297
43.5999985	0.90332
43.6199989	2.34814
43.6399994	8.0376
43.6599998	20.11914
43.6800003	29.1875
43.7000008	21.5708
43.7200012	9.40625
43.7400017	4.39502
43.7599983	7.52344
43.7799988	13.8125
43.7999992	15.9834
43.8199997	10.87305
43.8400002	7.42382
43.8600006	11.99951
43.8800011	36.61279
43.9000015	87.19531
43.9199982	121.59375
43.9399986	91.36036
43.9599991	59.53564
43.9799995	74.0415
44	104.55322
44.0200005	105.55811
44.0400009	80.65283
44.0600014	45.35401
44.0800018	29.79785
44.0999985	37.61572
44.1199989	39.10644
44.1399994	22.79639
44.1599998	8.5625
44.1800003	3.35693
44.2000008	1.80322
44.2200012	1.81885
44.2400017	2.63623
44.2599983	6.98536
44.2799988	21.10108
44.2999992	45.95264
44.3199997	55.07178
44.3400002	34.04981
44.3600006	13.55127
44.3800011	7.96972
44.4000015	15.19336
44.4199982	26.88183
44.4399986	27.14014
44.4599991	16.01074
44.4799995	8.02149
44.5	11.3501
44.5200005	29.17626
44.5400009	55.69092
44.5600014	60.11035
44.5800018	44.90967
44.5999985	53.18262
44.6199989	86.37061
44.6399994	94.35645
44.6599998	69.73877
44.6800003	41.64306
44.7000008	25.52246
44.7200012	29.99903
44.7400017	43.04151
44.7599983	36.39404
44.7799988	18.01221
44.7999992	6.15381
44.8199997	2.69141
44.8400002	2.31152
44.8600006	2.92237
44.8800011	6.24268
44.9000015	19.77734
44.9199982	50.83106
44.9399986	76.83496
44.9599991	59.29737
44.9799995	26.43359
45	11.07227
45.0200005	14.90625
45.0400009	30.22265
45.0600014	40.36914
45.0800018	28.95947
45.0999985	15.11524
45.1199989	14.17041
45.1399994	33.80957
45.1599998	70.67774
45.1800003	88.33691
45.2000008	72.75098
45.2200012	89.30273
45.2400017	153.95704
45.2599983	179.68115
45.2799988	130.16943
45.2999992	76.34082
45.3199997	45.43408
45.3400002	50.06396
45.3600006	79.21631
45.3800011	80.04394
45.4000015	44.04052
45.4199982	14.72851
45.4399986	4.81152
45.4599991	2.16308
45.4799995	1.52734
45.5	1.41748
45.5200005	2.2295
45.5400009	3.8374
45.5600014	5.85058
45.5800018	4.56104
45.5999985	2.04589
45.6199989	0.83057
45.6399994	1.79102
45.6599998	3.14062
45.6800003	4.4043
45.7000008	4.30322
45.7200012	4.88038
45.7400017	12.35449
45.7599983	38.61523
45.7799988	80.21436
45.7999992	90.73193
45.8199997	53.46679
45.8400002	20.62598
45.8600006	11.85303
45.8800011	22.0127
45.9000015	41.73877
45.9199982	45.58057
45.9399986	26.29199
45.9599991	8.92724
45.9799995	2.70996
46	1.22314
46.0200005	0.99365
46.0400009	0.83545
46.0600014	0.78955
46.0800018	0.51807
46.0999985	0.93066
46.1199989	2.66895
46.1399994	8.77051
46.1599998	19.60888
46.1800003	24.4458
46.2000008	15.66504
46.2200012	6.25635
46.2400017	3.34765
46.2599983	5.33105
46.2799988	10.54785
46.2999992	13.20069
46.3199997	9.35644
46.3400002	5.94434
46.3600006	10.73437
46.3800011	26.80078
46.4000015	43.48535
46.4199982	37.15088
46.4399986	19.90333
46.4599991	13.21582
46.4799995	15.90723
46.5	20.48584
46.5200005	24.73194
46.5400009	20.07617
46.5600014	10.26367
46.5800018	6.11475
46.5999985	5.84082
46.6199989	4.73877
46.6399994	2.5249
46.6599998	1.53466
46.6800003	1.30274
46.7000008	1.90625
46.7200012	4.40234
46.7400017	14.7207
46.7599983	38.81689
46.7799988	61.58204
46.7999992	50.15772
46.8199997	23.11816
46.8400002	8.85791
46.8600006	8.74561
46.8800011	18.9458
46.9000015	30.87207
46.9199982	27.33985
46.9399986	13.30371
46.9599991	5.97461
46.9799995	6.62207
47	10.56592
47.0200005	11.83838
47.0400009	13.5249
47.0600014	24.67334
47.0800018	39.1211
47.0999985	34.77783
47.1199989	19.7915
47.1399994	10.46485
47.1599998	7.71338
47.1800003	11.68994
47.2000008	18.92187
47.2200012	17.86524
47.2400017	8.95313
47.2599983	3.10694
47.2799988	1.21436
47.2999992	0.85596
47.3199997	1.22021
47.3400002	3.28809
47.3600006	8.33887
47.3800011	13.85058
47.4000015	11.88671
47.4199982	5.68018
47.4399986	3.57715
47.4599991	3.63867
47.4799995	6.2583
47.5	10.1084
47.5200005	11.6919
47.5400009	14.05371
47.5600014	35.41406
47.5800018	102.67969
47.5999985	191.11524
47.6199989	188.50098
47.6399994	99.75341
47.6599998	36.80518
47.6800003	23.03466
47.7000008	45.40186
47.7200012	89.05664
47.7400017	101.78906
47.7599983	61.13623
47.7799988	21.48584
47.7999992	6.51612
47.8199997	3.16113
47.8400002	2.21777
47.8600006	1.84326
47.8800011	1.74463
47.9000015	1.26123
47.9199982	3.22119
47.9399986	10.82129
47.9599991	26.9834
47.9799995	39.3833
48	29.39746
48.0200005	12.78809
48.0400009	5.85888
48.0600014	6.40088
48.0800018	13.14648
48.0999985	21.51758
48.1199989	21.0083
48.1399994	17.3418
48.1599998	33.32715
48.1800003	80.61426
48.2000008	124.20947
48.2200012	98.88135
48.2400017	44.97754
48.2599983	16.57275
48.2799988	14.94336
48.2999992	32.89063
48.3199997	58.6333
48.3400002	57.6123
48.3600006	29.50049
48.3800011	9.88623
48.4000015	3.12988
48.4199982	1.5918
48.4399986	1.09863
48.4599991	0.85157
48.4799995	0.72803
48.5	0.32421
48.5200005	1.00195
48.5400009	3.0669
48.5600014	6.02441
48.5800018	6.35986
48.5999985	3.5503
48.6199989	1.3208
48.6399994	1.35791
48.6599998	2.08398
48.6800003	3.771
48.7000008	5.5376
48.7200012	6.35059
48.7400017	12.52295
48.7599983	34.84424
48.7799988	67.65674
48.7999992	72.85889
48.8199997	48.4917
48.8400002	40.13427
48.8600006	48.90235
48.8800011	47.4917
48.9000015	43.98633
48.9199982	43.59668
48.9399986	31.22558
48.9599991	20.30518
48.9799995	21.85888
49	22.29541
49.0200005	13.02734
49.0400009	5.62646
49.0600014	3.08984
49.0800018	3.15283
49.0999985	7.70214
49.1199989	24.07373
49.1399994	53.19433
49.1599998	66.13623
49.1800003	42.53174
49.2000008	16.89111
49.2200012	7.98242
49.2400017	10.3081
49.2599983	22.20508
49.2799988	35.69287
49.2999992	33.42968
49.3199997	27.78614
49.3400002	50.52539
49.3600006	99.49121
49.3800011	115.60889
49.4000015	72.04883
49.4199982	33.42774
49.4399986	22.69824
49.4599991	26.54785
49.4799995	42.44434
49.5	60.22852
49.5200005	49.30811
49.5400009	23.75146
49.5600014	11.39258
49.5800018	8.15088
49.5999985	4.98828
49.6199989	2.31787
49.6399994	1.08887
49.6599998	0.17968
49.6800003	0.11133
49.7000008	0.08007
49.7200012	0.06055
49.7400017	0.00196
49.7599983	0.00245
49.7799988	0.00244
49.7999992	0.18457
49.8199997	0.24121
49.8400002	0.3291
49.8600006	0.49414
49.8800011	0.95459
49.9000015	2.88526
49.9199982	8.87939
49.9399986	17.82373
49.9599991	19.44727
49.9799995	11.34424
50	4.80615

# vim:ts=8:sw=8
